Folder: MPhil_SHU/Amorphous/WPEM-RuMnO/output_xrd

Note: README.md
ğŸ–ï¸ Here is my master's dissertation (2023) 

ğŸ“ æ›¹æ–Œ(Bin CAO) major in Mechanics 

ğŸ“¨ Please feel free to open issues in the Github or contact Me (Bin Cao : bcao@shu.edu.cn) in case of any problems/comments/suggestions.

### I will upload my master's thesis after it is published, please be patient
![WechatIMG954](https://github.com/Bin-Cao/MPhil_SHU/assets/86995074/7fe91853-698f-4eab-9844-ed78286721da)

File: Mn2O3.csv
No.,Dhkl,Mult,2theta/TOF,Intensity
1,4.705,6,18.8925,0.165213
2,3.84162,6,23.1918,0.568621
3,2.9757,12,30.0808,0.457304
4,2.71643,6,33.0302,100.0
5,2.51493,12,35.7624,16.6138
6,2.3525,6,38.3245,13.0039
7,2.21796,6,40.7491,5.93776
8,2.10414,12,43.06,1.08513
9,2.00622,12,45.2752,0.11474
10,1.92081,6,47.4085,0.748673
11,1.84545,12,49.4712,6.3802
12,1.71802,12,53.419,4.81305
13,1.66347,6,55.3179,52.7549
14,1.6138,12,57.1742,2.51725
15,1.56833,12,58.9925,0.404135
16,1.5265,12,60.7767,4.34049
17,1.48785,12,62.5304,0.943091
18,1.45199,12,64.2566,2.69117
19,1.41861,12,65.958,24.5513
20,1.38743,12,67.6372,1.82163
21,1.35822,6,69.2964,1.79214
22,1.33077,12,70.9376,2.33823
23,1.30493,12,72.5627,0.954008
24,1.28054,6,74.1735,2.86446
25,1.25746,12,75.7715,1.34225
26,1.23559,12,77.3583,0.293394

File: Mn2O3_extinction.csv
,H,K,L,Distance,Two_theta
13,1,1,1,5.4328,16.3429
3,0,1,2,4.2082,21.1471
6,0,2,2,3.3269,26.8422
0,0,0,3,3.1366,28.5042
14,1,1,3,2.8372,31.5866
7,0,2,3,2.6098,34.421
4,0,1,4,2.2822,39.5534
18,1,3,3,2.1588,41.9176
17,1,2,4,2.0534,44.1793
1,0,0,5,1.882,48.4481
15,1,1,5,1.8109,50.4805
8,0,2,5,1.7473,52.455
21,1,4,4,1.638,56.2537
19,1,3,5,1.5905,58.0911
5,0,1,6,1.5469,59.8927
11,0,4,5,1.4695,63.4013
23,3,3,5,1.435,65.1108
10,0,3,6,1.4027,66.8035
2,0,0,7,1.3442,70.1243
16,1,1,7,1.3176,71.7561
9,0,2,7,1.2925,73.374
22,2,2,7,1.2463,76.5724
20,1,3,7,1.225,78.1539
12,0,5,6,1.2048,79.7227